trialN,images1,duration1,images2,duration2,images3,duration3,correctAns,trials.thisRepN,trials.thisTrialN,trials.thisN,trials.thisIndex,fixation.started,fixation.stopped,image1.started,image1.stopped,key_resp_1.keys,key_resp_1.corr,key_resp_1.started,key_resp_1.stopped,image.started,image.stopped,image_2.started,image_2.stopped,key_resp_2.keys,key_resp_2.corr,key_resp_2.started,key_resp_2.stopped,participant,session,date,expName,psychopyVersion,frameRate,
1,taskSamples\A6_1.png,8,None,0,None,0,1,0,0,0,0,7.648033899953589,None,8.448387300013565,None,None,0,8.448387300013565,None,16.463857729977462,None,16.463857729977462,None,None,0,16.463857729977462,None,,001,2021_Aug_23_1443,taskSwitching,2021.2.1,59.97515829577362,
2,taskSamples\A20_2.png,8,None,0,None,0,2,0,1,1,1,16.463780399993993,None,17.285169699927792,None,None,0,17.285169699927792,None,25.28746462991694,None,25.28746462991694,None,None,0,25.28746462991694,None,,001,2021_Aug_23_1443,taskSwitching,2021.2.1,59.97515829577362,
3,taskSamples\B17.png,5,None,0,None,0,2,0,2,2,2,25.28737319994252,None,26.108808599994518,None,None,0,26.108808599994518,None,31.122715929930564,None,31.122715929930564,None,None,0,31.122715929930564,None,,001,2021_Aug_23_1443,taskSwitching,2021.2.1,59.97515829577362,
4,taskSamples\B8.png,5,None,0,None,0,2,0,3,3,3,31.121603399980813,None,31.92740489996504,None,None,0,31.92740489996504,None,36.956988629943226,None,36.956988629943226,None,None,0,36.956988629943226,None,,001,2021_Aug_23_1443,taskSwitching,2021.2.1,59.97515829577362,
5,taskSamples\C4_Spatial_ADD_1.png,8,taskSamples\C4_Spatial_ADD_2.png,2,taskSamples\C4_Spatial_ADD_3.png,5,1,0,4,4,4,36.95602159993723,None,37.77764559991192,None,None,0,37.77764559991192,None,45.81371979997493,None,47.83230769995134,None,None,0,47.83230769995134,None,,001,2021_Aug_23_1443,taskSwitching,2021.2.1,59.97515829577362,
6,taskSamples\C3_Episodic_SUB_1.png,8,taskSamples\C3_Episodic_SUB_2.png,2,taskSamples\C3_Episodic_SUB_3.png,5,1,0,5,5,5,52.85357619996648,None,53.67512569995597,None,None,0,53.67512569995597,None,61.71139029995538,None,63.72984559996985,None,None,0,63.72984559996985,None,,001,2021_Aug_23_1443,taskSwitching,2021.2.1,59.97515829577362,
7,taskSamples\B18.png,5,None,0,None,0,2,0,6,6,6,68.73428450000938,None,69.53889500000514,None,None,0,69.53889500000514,None,74.55608852993464,None,74.55608852993464,None,None,0,74.55608852993464,None,,001,2021_Aug_23_1443,taskSwitching,2021.2.1,59.97515829577362,
8,taskSamples\B2.png,5,None,0,None,0,1,0,7,7,7,74.55652599991299,None,75.37824469991028,None,None,0,75.37824469991028,None,80.39445922995219,None,80.39445922995219,None,None,0,80.39445922995219,None,,001,2021_Aug_23_1443,taskSwitching,2021.2.1,59.97515829577362,
9,taskSamples\A14_2.png,8,None,0,None,0,2,0,8,8,8,80.39406829990912,None,81.21567509998567,None,None,0,81.21567509998567,None,89.23252812999999,None,89.23252812999999,None,None,0,89.23252812999999,None,,001,2021_Aug_23_1443,taskSwitching,2021.2.1,59.97515829577362,
10,taskSamples\A15_2.png,8,None,0,None,0,2,0,9,9,9,89.23231959994882,None,90.0377937000012,None,None,0,90.0377937000012,None,98.05236082995543,None,98.05236082995543,None,None,0,98.05236082995543,None,,001,2021_Aug_23_1443,taskSwitching,2021.2.1,59.97515829577362,
11,taskSamples\B1.png,5,None,0,None,0,1,0,10,10,10,98.05133469996508,None,98.8727099999087,None,None,0,98.8727099999087,None,103.87306293001166,None,103.87306293001166,None,None,0,103.87306293001166,None,,001,2021_Aug_23_1443,taskSwitching,2021.2.1,59.97515829577362,
12,taskSamples\B11.png,5,None,0,None,0,2,0,11,11,11,103.87289389991201,None,104.69456619990524,None,None,0,104.69456619990524,None,109.71095792989945,None,109.71095792989945,None,None,0,109.71095792989945,None,,001,2021_Aug_23_1443,taskSwitching,2021.2.1,59.97515829577362,
13,taskSamples\A1_1.png,8,None,0,None,0,2,0,12,12,12,109.71068039990496,None,110.53223999997135,None,None,0,110.53223999997135,None,118.54788202996133,None,118.54788202996133,None,None,0,118.54788202996133,None,,001,2021_Aug_23_1443,taskSwitching,2021.2.1,59.97515829577362,
14,taskSamples\A9_1.png,8,None,0,None,0,1,0,13,13,13,118.54767529992387,None,119.36938829999417,None,None,0,119.36938829999417,None,127.36840152990771,None,127.36840152990771,None,None,0,127.36840152990771,None,,001,2021_Aug_23_1443,taskSwitching,2021.2.1,59.97515829577362,
15,taskSamples\C8_Spatial_SUB_1.png,8,taskSamples\C8_Spatial_SUB_2.png,2,taskSamples\C8_Spatial_SUB_3.png,5,1,0,14,14,14,127.36894049996044,None,128.2105677999789,None,None,0,128.2105677999789,None,136.23019649996422,None,138.24865449999925,None,None,0,138.24865449999925,None,,001,2021_Aug_23_1443,taskSwitching,2021.2.1,59.97515829577362,
16,taskSamples\C9_Episodic_SUB_1.png,8,taskSamples\C9_Episodic_SUB_2.png,2,taskSamples\C9_Episodic_SUB_3.png,5,2,0,15,15,15,143.27057759999298,None,144.09141559991986,None,None,0,144.09141559991986,None,152.11071589996573,None,154.13891909993254,None,None,0,154.13891909993254,None,,001,2021_Aug_23_1443,taskSwitching,2021.2.1,59.97515829577362,
17,taskSamples\A4_1.png,8,None,0,None,0,2,0,16,16,16,159.14765890000854,None,159.96909129992127,None,None,0,159.96909129992127,None,167.9681545299827,None,167.9681545299827,None,None,0,167.9681545299827,None,,001,2021_Aug_23_1443,taskSwitching,2021.2.1,59.97515829577362,
18,taskSamples\A18_2.png,8,None,0,None,0,1,0,17,17,17,167.96798560000025,None,168.78952140000183,None,None,0,168.78952140000183,None,176.8167727299151,None,176.8167727299151,None,None,0,176.8167727299151,None,,001,2021_Aug_23_1443,taskSwitching,2021.2.1,59.97515829577362,
19,taskSamples\B5.png,5,None,0,None,0,1,0,18,18,18,176.81651209993288,None,177.63897129998077,None,None,0,177.63897129998077,None,182.65626873000292,None,182.65626873000292,None,None,0,182.65626873000292,None,,001,2021_Aug_23_1443,taskSwitching,2021.2.1,59.97515829577362,
20,taskSamples\B13.png,5,None,0,None,0,2,0,19,19,19,182.65594049997162,None,183.47849349991884,None,None,0,183.47849349991884,None,188.49474062997615,None,188.49474062997615,None,None,0,188.49474062997615,None,,001,2021_Aug_23_1443,taskSwitching,2021.2.1,59.97515829577362,
21,taskSamples\A7_1.png,8,None,0,None,0,2,0,20,20,20,188.49528319993988,None,189.3159221999813,None,None,0,189.3159221999813,None,197.31922732997919,None,197.31922732997919,None,None,0,197.31922732997919,None,,001,2021_Aug_23_1443,taskSwitching,2021.2.1,59.97515829577362,
22,taskSamples\B20.png,5,None,0,None,0,2,0,21,21,21,197.31900569994468,None,198.14038709993474,None,None,0,198.14038709993474,None,203.15770663000876,None,203.15770663000876,None,None,0,203.15770663000876,None,,001,2021_Aug_23_1443,taskSwitching,2021.2.1,59.97515829577362,
23,taskSamples\C2_Spatial_SUB_1.png,8,taskSamples\C2_Spatial_SUB_2.png,2,taskSamples\C2_Spatial_SUB_3.png,5,2,0,22,22,22,203.15813769993838,None,203.97910749993753,None,None,0,203.97910749993753,None,212.03174939996097,None,214.05030529992655,None,None,0,214.05030529992655,None,,001,2021_Aug_23_1443,taskSwitching,2021.2.1,59.97515829577362,
24,taskSamples\B6.png,5,None,0,None,0,1,0,23,23,23,219.07166099990718,None,219.8931392999366,None,None,0,219.8931392999366,None,224.91062663000776,None,224.91062663000776,None,None,0,224.91062663000776,None,,001,2021_Aug_23_1443,taskSwitching,2021.2.1,59.97515829577362,
25,taskSamples\A8_1.png,8,None,0,None,0,2,0,24,24,24,224.90952459990513,None,225.73103959998116,None,None,0,225.73103959998116,None,233.73458432994084,None,233.73458432994084,None,None,0,233.73458432994084,None,,001,2021_Aug_23_1443,taskSwitching,2021.2.1,59.97515829577362,
26,taskSamples\B3.png,5,None,0,None,0,1,0,25,25,25,233.7336357999593,None,234.55499039997812,None,None,0,234.55499039997812,None,239.57524202991044,None,239.57524202991044,None,None,0,239.57524202991044,None,,001,2021_Aug_23_1443,taskSwitching,2021.2.1,59.97515829577362,
27,taskSamples\A13_2.png,8,None,0,None,0,1,0,26,26,26,239.57584219996352,None,240.39654939994216,None,None,0,240.39654939994216,None,248.42202112992527,None,248.42202112992527,None,None,0,248.42202112992527,None,,001,2021_Aug_23_1443,taskSwitching,2021.2.1,59.97515829577362,
28,taskSamples\C6_Episodic_ADD_1.png,8,taskSamples\C6_Episodic_ADD_2.png,2,taskSamples\C6_Episodic_ADD_3.png,5,1,0,27,27,27,248.42181639990304,None,249.26404589996673,None,None,0,249.26404589996673,None,257.3013636999531,None,259.3361247999128,None,None,0,259.3361247999128,None,,001,2021_Aug_23_1443,taskSwitching,2021.2.1,59.97515829577362,
29,taskSamples\A11_2.png,8,None,0,None,0,1,0,28,28,28,264.34082549996674,None,265.1615318999393,None,None,0,265.1615318999393,None,273.1784413299174,None,273.1784413299174,None,None,0,273.1784413299174,None,,001,2021_Aug_23_1443,taskSwitching,2021.2.1,59.97515829577362,
30,taskSamples\B16.png,5,None,0,None,0,2,0,29,29,29,273.17803849990014,None,273.99881249992177,None,None,0,273.99881249992177,None,279.0118045299896,None,279.0118045299896,None,None,0,279.0118045299896,None,,001,2021_Aug_23_1443,taskSwitching,2021.2.1,59.97515829577362,
31,taskSamples\A2_1.png,8,None,0,None,0,1,0,30,30,30,279.01169199997094,None,279.85403469996527,None,None,0,279.85403469996527,None,287.85799882997526,None,287.85799882997526,None,None,0,287.85799882997526,None,,001,2021_Aug_23_1443,taskSwitching,2021.2.1,59.97515829577362,
32,taskSamples\A17_2.png,8,None,0,None,0,1,0,31,31,31,287.8570409999229,None,288.67853629996534,None,None,0,288.67853629996534,None,296.6991668299888,None,296.6991668299888,None,None,0,296.6991668299888,None,,001,2021_Aug_23_1443,taskSwitching,2021.2.1,59.97515829577362,
33,taskSamples\B7.png,5,None,0,None,0,1,0,32,32,32,296.69818760000635,None,297.51948919997085,None,None,0,297.51948919997085,None,302.53868062997935,None,302.53868062997935,None,None,0,302.53868062997935,None,,001,2021_Aug_23_1443,taskSwitching,2021.2.1,59.97515829577362,
34,taskSamples\B10.png,5,None,0,None,0,2,0,33,33,33,302.5383325999137,None,303.36088819999713,None,None,0,303.36088819999713,None,308.3765238299384,None,308.3765238299384,None,None,0,308.3765238299384,None,,001,2021_Aug_23_1443,taskSwitching,2021.2.1,59.97515829577362,
35,taskSamples\C7_Episodic_ADD_1.png,8,taskSamples\C7_Episodic_ADD_2.png,2,taskSamples\C7_Episodic_ADD_3.png,5,1,0,34,34,34,308.37623009993695,None,309.19782979995944,None,None,0,309.19782979995944,None,317.23415599996224,None,319.2534916999284,None,None,0,319.2534916999284,None,,001,2021_Aug_23_1443,taskSwitching,2021.2.1,59.97515829577362,
36,taskSamples\C10_Spatial_ADD_1.png,8,taskSamples\C10_Spatial_ADD_2.png,2,taskSamples\C10_Spatial_ADD_3.png,5,2,0,35,35,35,324.2578835999593,None,325.0787071000086,None,None,0,325.0787071000086,None,333.1149373999797,None,335.15098809998017,None,None,0,335.15098809998017,None,,001,2021_Aug_23_1443,taskSwitching,2021.2.1,59.97515829577362,
37,taskSamples\B4.png,5,None,0,None,0,1,0,36,36,36,340.1711101999972,None,340.9928818999324,None,None,0,340.9928818999324,None,345.99271372990916,None,345.99271372990916,None,None,0,345.99271372990916,None,,001,2021_Aug_23_1443,taskSwitching,2021.2.1,59.97515829577362,
38,taskSamples\B9.png,5,None,0,None,0,2,0,37,37,37,345.9925064999843,None,346.81408269994427,None,None,0,346.81408269994427,None,351.8311559300055,None,351.8311559300055,None,None,0,351.8311559300055,None,,001,2021_Aug_23_1443,taskSwitching,2021.2.1,59.97515829577362,
39,taskSamples\A10_1.png,8,None,0,None,0,2,0,38,38,38,351.8309166999534,None,352.65228769998066,None,None,0,352.65228769998066,None,360.6719828299829,None,360.6719828299829,None,None,0,360.6719828299829,None,,001,2021_Aug_23_1443,taskSwitching,2021.2.1,59.97515829577362,
40,taskSamples\A5_1.png,8,None,0,None,0,1,0,39,39,39,360.671687199967,None,361.4931731999386,None,None,0,361.4931731999386,None,369.5089642300154,None,369.5089642300154,None,None,0,369.5089642300154,None,,001,2021_Aug_23_1443,taskSwitching,2021.2.1,59.97515829577362,
41,taskSamples\B15.png,5,None,0,None,0,2,0,40,40,40,369.5095280999085,None,370.33023889991455,None,None,0,370.33023889991455,None,375.3316153300111,None,375.3316153300111,None,None,0,375.3316153300111,None,,001,2021_Aug_23_1443,taskSwitching,2021.2.1,59.97515829577362,
42,taskSamples\B14.png,5,None,0,None,0,2,0,41,41,41,375.33129319990985,None,376.1522528999485,None,None,0,376.1522528999485,None,381.1692368299118,None,381.1692368299118,None,None,0,381.1692368299118,None,,001,2021_Aug_23_1443,taskSwitching,2021.2.1,59.97515829577362,
,,,,,,,,,,,,381.1690243999474,None,,,,,,,,,,,,,,,,,,,,,
